// Literal Expression of FHIR
// HGVS expression: 


NC_000001.11:g.943043C>T



// VRS

{
	"_id": "ga4gh:VA.s8vzlmFv83fcoJnNovFkp4pnE48weUh4",
	"type": "Allele",
	"location": {
		"_id": "ga4gh:VSL.2tX8CXXY1z3HcbrXdGGTbmuqmYgNks6G",
		"type": "SequenceLocation",
		"sequence_id": "ga4gh:SQ.Ya6Rs7DHhDeg7YaOSg1EoNi3U_nQ9SvO",
		"interval": {
			"type": "SequenceInterval",
			"start": {
				"type": "Number",
				"value": 943042
			},
			"end": {
				"type": "Number",
				"value": 943043
			}
		}
	},
	"state": {
		"type": "LiteralSequenceExpression",
		"sequence": "T"
	}
}



# FHIR

{
	"resourceType": "MolecularSequence",
	"id": "VRS_example_literal_1",
	"identifier": {
		"value": no value because we dont have an id for the T//"ga4gh:VA.s8vzlmFv83fcoJnNovFkp4pnE48weUh4" //VRS ID
	},
	"type": "dna", //VRS does not convey the Type (loss in translation): This was pulled from the reference sequence of hgvs.
	"literal": [
		{
			"sequenceValue": "T" //VRS literal sequence expression 
		}
	]
}
// DerivedsequenceExpression

HGVS -- Unknown

// VRS
{
	"type": "DerivedSequenceExpression",
	"location": {
		"type": "SequenceLocation",
		"sequence_id": "refseq:NC_000003.11",
		"interval": {
			"type": "SequenceInterval",
			"start": {
				"type": "Number",
				"value": 154886500
			},
			"end": {
				"type": "Number",
				"value": 41209172
			}
		}
	},
	"reverse_complement": false
}
// FHIR Molecular for VRS derivedSequenceExpression
{
	"resourceType": "MolecularSequence",
	"id": "VRS_example_derived_1",
	"identifier": {
		"value": "refseq:NC_000003.11"
	},
	"type": "dna", //VRS does not convey the Type (loss in translation): This was pulled from the reference sequence of hgvs.
	"extracted": [
		{
			"startingSequence": {
				"reference": "MolecularSequence/VRS_example_nested_derived_1",
				"type": "MolecularSequence",
				"display": "Starting Sequence Resource"
			},
			"start": 154886500,
			"end": 41209172,
			"coordinateSystem": {
				"coding": [
					{
						"system": "http://loinc.org",
						"code": "LA30100-4",
						"display": "0-based interval counting"
					}
				],
				"text": "0-based interval counting"
			},
			"reverseComplement": false
		}
	]
}

{
	"resourceType": "MolecularSequence",
	"id": "VRS_example_nested_derived_1",
	"identifier": {
		"value": "refseq:NC_000003.11"
	}
}
//RepeatedSequence Expression
// VRS RepeatedSequence
{
	"type": "RepeatedSequenceExpression",
	"seq_expr": {
		"type": "DerivedSequenceExpression",
		"location": {
			"type": "SequenceLocation",
			"sequence_id": "refseq:NC_000003.11",
			"interval": {
				"type": "SequenceInterval",
				"start": {
					"type": "Number",
					"value": 154886500
				},
				"end": {
					"type": "Number",
					"value": 41209172
				}
			}
		},
		"reverse_complement": false
	},
	"count": {
		"type": "IndefiniteRange",
		"value": 4,
		"comparator": ">="
	}
}
//FHIR Molecular for VRS RepeatedSequenceExpression
{
	"resourceType": "MolecularSequence",
	"id": "VRS_example_repeated_1",
	"type": "dna", // vrs-Sequence_id does not provide us with the type
	"identifier": {
		"value": "VRS-CURIE"
	},
	"repeated": [
		{
			"sequenceMotif": {
				"reference": "MolecularSequence/motif_example",
				"type": "MolecularSequence",
				"display": "Sequence-of motif example"
			},
			"copyCount": "4"
		}
	],
}
//VRS ComposedSequenceExpression
// should we taking the full allele or just the mapping of ComposedSequenceExpression
{
	"type": "Allele",
	"location": {
		"type": "SequenceLocation",
		"sequence_id": "ga4gh:SQ.sH4gymNtL5nxNdTE3evfxzZa4dg3fqDz",
		"interval": {
			"type": "SequenceInterval",
			"start": {
				"type": "Number",
				"value": 3
			},
			"end": {
				"type": "Number",
				"value": 33
			}
		}
	},
	"state": {
		"type": "ComposedSequenceExpression",
		"components": [
			{
				"type": "RepeatedSequenceExpression",
				"seq_expr": {
					"type": "LiteralSequenceExpression",
					"sequence": "GCG"
				},
				"count": {
					"type": "Number",
					"value": 11
				}
			},
			{
				"type": "RepeatedSequenceExpression",
				"seq_expr": {
					"type": "LiteralSequenceExpression",
					"sequence": "GCA"
				},
				"count": {
					"type": "Number",
					"value": 3
				}
			},
			{
				"type": "RepeatedSequenceExpression",
				"seq_expr": {
					"type": "LiteralSequenceExpression",
					"sequence": "GCG"
				},
				"count": {
					"type": "Number",
					"value": 1
				}
			}
		]
	}
}

{
	"type": "ComposedSequenceExpression",
	"components": [
		{
			"type": "RepeatedSequenceExpression",
			"seq_expr": {
				"type": "LiteralSequenceExpression",
				"sequence": "GCG"
			},
			"count": {
				"type": "Number",
				"value": 11
			}
		},
		{
			"type": "RepeatedSequenceExpression",
			"seq_expr": {
				"type": "LiteralSequenceExpression",
				"sequence": "GCA"
			},
			"count": {
				"type": "Number",
				"value": 3
			}
		},
		{
			"type": "RepeatedSequenceExpression",
			"seq_expr": {
				"type": "LiteralSequenceExpression",
				"sequence": "GCG"
			},
			"count": {
				"type": "Number",
				"value": 1
			}
		}
	]
}
//FHIR ComposedSequenceExpression
{
	"resourceType": "MolecularSequence",
	"id": "VRS_example_composed_sequence_expression_1",
	"type": "dna", //VRS does not convey the Type (loss in translation): This was pulled from the reference sequence of hgvs.
	"concatenated": {
		"sequenceElement": [
			{
				"sequence": {
					"reference": "MolecularSequence/VRS_example_repeated_0",
					"type": "MolecularSequence",
					"display": "Sequence-of index 0-Resource for concatenated sequence example"
				},
				"ordinalIndex": 0
			},
			{
				"sequence": {
					"reference": "MolecularSequence/VRS_example_repeated_1",
					"type": "MolecularSequence",
					"display": "Sequence-of index 1-Resource for concatenated sequence example"
				},
				"ordinalIndex": 1
			},
			{
				"sequence": {
					"reference": "MolecularSequence/VRS_example_repeated_2",
					"type": "MolecularSequence",
					"display": "Sequence-of index 2-Resource for concatenated sequence example"
				},
				"ordinalIndex": 2
			}
		]
	}
}

{
	"resourceType": "MolecularSequence",
	"id": "VRS_example_repeated_0",
	"type": "dna", // vrs-Sequence_id does not provide us with the type
	"identifier": {
		"value": "VRS-CURIE"
	},
	"repeated": [
		{
			"sequenceMotif": {
				"reference": "MolecularSequence/motif_example",
				"type": "MolecularSequence",
				"display": "Sequence-of motif example"
			},
			"copyCount": "11"
		}
	],
}
{
	"resourceType": "MolecularSequence",
	"id": "VRS_example_repeated_1",
	"type": "dna", // vrs-Sequence_id does not provide us with the type
	"identifier": {
		"value": "VRS-CURIE"
	},
	"repeated": [
		{
			"sequenceMotif": {
				"reference": "MolecularSequence/motif_example",
				"type": "MolecularSequence",
				"display": "Sequence-of motif example"
			},
			"copyCount": "3"
		}
	],
}
{
	"resourceType": "MolecularSequence",
	"id": "VRS_example_repeated_2",
	"type": "dna", // vrs-Sequence_id does not provide us with the type
	"identifier": {
		"value": "VRS-CURIE"
	},
	"repeated": [
		{
			"sequenceMotif": {
				"reference": "MolecularSequence/motif_example",
				"type": "MolecularSequence",
				"display": "Sequence-of motif example"
			},
			"copyCount": "1"
		}
	],
}